[{"Block":1,"Trial":1,"Pattern":"0101","Outcome":"Rain","Resp":"Rain","ACC":1,"RT":4334,"Device":"touch"},{"Block":1,"Trial":2,"Pattern":"1001","Outcome":"Sun","Resp":"Sun","ACC":1,"RT":1134,"Device":"touch"},{"Block":1,"Trial":3,"Pattern":"1100","Outcome":"Rain","Resp":"Sun","ACC":0,"RT":1400,"Device":"touch"},{"Block":1,"Trial":4,"Pattern":"0110","Outcome":"Sun","Resp":"Rain","ACC":0,"RT":1250,"Device":"touch"},{"Block":1,"Trial":5,"Pattern":"0101","Outcome":"Rain","Resp":"Rain","ACC":1,"RT":1367,"Device":"touch"},{"Block":1,"Trial":6,"Pattern":"1001","Outcome":"Rain","Resp":"Rain","ACC":1,"RT":1467,"Device":"touch"},{"Block":1,"Trial":7,"Pattern":"0011","Outcome":"Rain","Resp":"Sun","ACC":0,"RT":1866,"Device":"touch"},{"Block":1,"Trial":8,"Pattern":"1101","Outcome":"Rain","Resp":"Rain","ACC":1,"RT":1933,"Device":"touch"},{"Block":1,"Trial":9,"Pattern":"1110","Outcome":"Sun","Resp":"Sun","ACC":1,"RT":2867,"Device":"touch"},{"Block":1,"Trial":10,"Pattern":"1101","Outcome":"Rain","Resp":"Rain","ACC":1,"RT":1434,"Device":"touch"},{"Block":1,"Trial":11,"Pattern":"1110","Outcome":"Sun","Resp":"Sun","ACC":1,"RT":1100,"Device":"touch"},{"Block":1,"Trial":12,"Pattern":"1010","Outcome":"Rain","Resp":"Sun","ACC":0,"RT":750,"Device":"touch"},{"Block":1,"Trial":13,"Pattern":"1001","Outcome":"Sun","Resp":"Rain","ACC":0,"RT":1134,"Device":"touch"},{"Block":1,"Trial":14,"Pattern":"0011","Outcome":"Rain","Resp":"Sun","ACC":0,"RT":1867,"Device":"touch"},{"Block":1,"Trial":15,"Pattern":"1100","Outcome":"Rain","Resp":"Rain","ACC":1,"RT":3350,"Device":"touch"},{"Block":1,"Trial":16,"Pattern":"0011","Outcome":"Rain","Resp":"Sun","ACC":0,"RT":1133,"Device":"touch"},{"Block":1,"Trial":17,"Pattern":"1100","Outcome":"Rain","Resp":"Rain","ACC":1,"RT":1783,"Device":"touch"},{"Block":1,"Trial":18,"Pattern":"1001","Outcome":"Sun","Resp":"Rain","ACC":0,"RT":600,"Device":"touch"},{"Block":1,"Trial":19,"Pattern":"0101","Outcome":"Sun","Resp":"Rain","ACC":0,"RT":196,"Device":"touch"},{"Block":1,"Trial":20,"Pattern":"1001","Outcome":"Sun","Resp":"Rain","ACC":0,"RT":3400,"Device":"touch"},{"Block":1,"Trial":21,"Pattern":"1110","Outcome":"Rain","Resp":"Sun","ACC":0,"RT":1133,"Device":"touch"},{"Block":1,"Trial":22,"Pattern":"1100","Outcome":"Rain","Resp":"Rain","ACC":1,"RT":1384,"Device":"touch"},{"Block":1,"Trial":23,"Pattern":"1010","Outcome":"Rain","Resp":"Sun","ACC":0,"RT":1634,"Device":"touch"},{"Block":1,"Trial":24,"Pattern":"1001","Outcome":"Sun","Resp":"Rain","ACC":0,"RT":1034,"Device":"touch"},{"Block":1,"Trial":25,"Pattern":"0110","Outcome":"Sun","Resp":"Sun","ACC":1,"RT":11584,"Device":"touch"},{"Block":2,"Trial":26,"Pattern":"1110","Outcome":"Sun","Resp":"Sun","ACC":1,"RT":3917,"Device":"touch"},{"Block":2,"Trial":27,"Pattern":"0011","Outcome":"Rain","Resp":"Rain","ACC":1,"RT":116,"Device":"touch"},{"Block":2,"Trial":28,"Pattern":"0110","Outcome":"Rain","Resp":"Sun","ACC":0,"RT":1767,"Device":"touch"},{"Block":2,"Trial":29,"Pattern":"1110","Outcome":"Sun","Resp":"Sun","ACC":1,"RT":13351,"Device":"touch"},{"Block":2,"Trial":30,"Pattern":"1100","Outcome":"Rain","Resp":"Rain","ACC":1,"RT":1084,"Device":"touch"},{"Block":2,"Trial":31,"Pattern":"1110","Outcome":"Sun","Resp":"Sun","ACC":1,"RT":1450,"Device":"touch"},{"Block":2,"Trial":32,"Pattern":"1101","Outcome":"Rain","Resp":"Rain","ACC":1,"RT":2617,"Device":"touch"},{"Block":2,"Trial":33,"Pattern":"0011","Outcome":"Sun","Resp":"Sun","ACC":1,"RT":267,"Device":"touch"},{"Block":2,"Trial":34,"Pattern":"1010","Outcome":"Rain","Resp":"Rain","ACC":1,"RT":34,"Device":"touch"},{"Block":2,"Trial":35,"Pattern":"0110","Outcome":"Sun","Resp":"Sun","ACC":1,"RT":200,"Device":"touch"},{"Block":2,"Trial":36,"Pattern":"1100","Outcome":"Rain","Resp":"Rain","ACC":1,"RT":1333,"Device":"touch"},{"Block":2,"Trial":37,"Pattern":"0110","Outcome":"Sun","Resp":"Sun","ACC":1,"RT":200,"Device":"touch"},{"Block":2,"Trial":38,"Pattern":"1001","Outcome":"Sun","Resp":"Rain","ACC":0,"RT":1317,"Device":"touch"},{"Block":2,"Trial":39,"Pattern":"1100","Outcome":"Rain","Resp":"Rain","ACC":1,"RT":767,"Device":"touch"},{"Block":2,"Trial":40,"Pattern":"1110","Outcome":"Rain","Resp":"Sun","ACC":0,"RT":1650,"Device":"touch"},{"Block":2,"Trial":41,"Pattern":"1101","Outcome":"Rain","Resp":"Rain","ACC":1,"RT":4067,"Device":"touch"},{"Block":2,"Trial":42,"Pattern":"0011","Outcome":"Rain","Resp":"Sun","ACC":0,"RT":634,"Device":"touch"},{"Block":2,"Trial":43,"Pattern":"1110","Outcome":"Sun","Resp":"Sun","ACC":1,"RT":6767,"Device":"touch"},{"Block":2,"Trial":44,"Pattern":"1101","Outcome":"Rain","Resp":"Rain","ACC":1,"RT":850,"Device":"touch"},{"Block":2,"Trial":45,"Pattern":"1110","Outcome":"Sun","Resp":"Sun","ACC":1,"RT":23868,"Device":"touch"},{"Block":2,"Trial":46,"Pattern":"1001","Outcome":"Sun","Resp":"Rain","ACC":0,"RT":133,"Device":"touch"},{"Block":2,"Trial":47,"Pattern":"1010","Outcome":"Sun","Resp":"Sun","ACC":1,"RT":4050,"Device":"touch"},{"Block":2,"Trial":48,"Pattern":"0110","Outcome":"Rain","Resp":"Rain","ACC":1,"RT":50,"Device":"touch"},{"Block":2,"Trial":49,"Pattern":"1110","Outcome":"Sun","Resp":"Sun","ACC":1,"RT":100,"Device":"touch"},{"Block":2,"Trial":50,"Pattern":"0011","Outcome":"Rain","Resp":"Rain","ACC":1,"RT":2150,"Device":"touch"},{"Block":3,"Trial":51,"Pattern":"1101","Outcome":"Rain","Resp":"Rain","ACC":1,"RT":3550,"Device":"touch"},{"Block":3,"Trial":52,"Pattern":"1010","Outcome":"Rain","Resp":"Sun","ACC":0,"RT":150,"Device":"touch"},{"Block":3,"Trial":53,"Pattern":"1110","Outcome":"Sun","Resp":"Sun","ACC":1,"RT":2450,"Device":"touch"},{"Block":3,"Trial":54,"Pattern":"1101","Outcome":"Rain","Resp":"Rain","ACC":1,"RT":6701,"Device":"touch"},{"Block":3,"Trial":55,"Pattern":"0101","Outcome":"Rain","Resp":"Sun","ACC":0,"RT":134,"Device":"touch"},{"Block":3,"Trial":56,"Pattern":"0011","Outcome":"Rain","Resp":"Rain","ACC":1,"RT":633,"Device":"touch"},{"Block":3,"Trial":57,"Pattern":"0110","Outcome":"Rain","Resp":"Rain","ACC":1,"RT":7284,"Device":"touch"},{"Block":3,"Trial":58,"Pattern":"1101","Outcome":"Rain","Resp":"Sun","ACC":0,"RT":1817,"Device":"touch"},{"Block":3,"Trial":59,"Pattern":"0110","Outcome":"Sun","Resp":"Rain","ACC":0,"RT":2384,"Device":"touch"},{"Block":3,"Trial":60,"Pattern":"1101","Outcome":"Rain","Resp":"Rain","ACC":1,"RT":2551,"Device":"touch"},{"Block":3,"Trial":61,"Pattern":"1010","Outcome":"Sun","Resp":"Sun","ACC":1,"RT":1633,"Device":"touch"},{"Block":3,"Trial":62,"Pattern":"0011","Outcome":"Sun","Resp":"Rain","ACC":0,"RT":300,"Device":"touch"},{"Block":3,"Trial":63,"Pattern":"1110","Outcome":"Rain","Resp":"Rain","ACC":1,"RT":100,"Device":"touch"},{"Block":3,"Trial":64,"Pattern":"1001","Outcome":"Sun","Resp":"Sun","ACC":1,"RT":313,"Device":"touch"},{"Block":3,"Trial":65,"Pattern":"1010","Outcome":"Rain","Resp":"Rain","ACC":1,"RT":700,"Device":"touch"},{"Block":3,"Trial":66,"Pattern":"1101","Outcome":"Sun","Resp":"Sun","ACC":1,"RT":150,"Device":"touch"},{"Block":3,"Trial":67,"Pattern":"1010","Outcome":"Rain","Resp":"Sun","ACC":0,"RT":650,"Device":"touch"},{"Block":3,"Trial":68,"Pattern":"0110","Outcome":"Sun","Resp":"Rain","ACC":0,"RT":16030,"Device":"touch"},{"Block":3,"Trial":69,"Pattern":"1101","Outcome":"Rain","Resp":"Sun","ACC":0,"RT":117,"Device":"touch"},{"Block":3,"Trial":70,"Pattern":"1001","Outcome":"Sun","Resp":"Rain","ACC":0,"RT":2267,"Device":"touch"},{"Block":3,"Trial":71,"Pattern":"0011","Outcome":"Sun","Resp":"Rain","ACC":0,"RT":133,"Device":"touch"},{"Block":3,"Trial":72,"Pattern":"1100","Outcome":"Rain","Resp":"Sun","ACC":0,"RT":967,"Device":"touch"},{"Block":3,"Trial":73,"Pattern":"1010","Outcome":"Rain","Resp":"Sun","ACC":0,"RT":2417,"Device":"touch"},{"Block":3,"Trial":74,"Pattern":"1101","Outcome":"Rain","Resp":"Rain","ACC":1,"RT":350,"Device":"touch"},{"Block":3,"Trial":75,"Pattern":"1110","Outcome":"Sun","Resp":"Sun","ACC":1,"RT":916,"Device":"touch"},{"Block":4,"Trial":76,"Pattern":"1010","Outcome":"Rain","Resp":"Sun","ACC":0,"RT":3117,"Device":"touch"},{"Block":4,"Trial":77,"Pattern":"0101","Outcome":"Sun","Resp":"Rain","ACC":0,"RT":183,"Device":"touch"},{"Block":4,"Trial":78,"Pattern":"0110","Outcome":"Sun","Resp":"Sun","ACC":1,"RT":2783,"Device":"touch"},{"Block":4,"Trial":79,"Pattern":"1101","Outcome":"Rain","Resp":"Rain","ACC":1,"RT":1350,"Device":"touch"},{"Block":4,"Trial":80,"Pattern":"0011","Outcome":"Rain","Resp":"Sun","ACC":0,"RT":15801,"Device":"touch"},{"Block":4,"Trial":81,"Pattern":"1101","Outcome":"Sun","Resp":"Sun","ACC":1,"RT":2267,"Device":"touch"},{"Block":4,"Trial":82,"Pattern":"0110","Outcome":"Sun","Resp":"Sun","ACC":1,"RT":1167,"Device":"touch"},{"Block":4,"Trial":83,"Pattern":"1010","Outcome":"Rain","Resp":"Rain","ACC":1,"RT":1850,"Device":"touch"},{"Block":4,"Trial":84,"Pattern":"1001","Outcome":"Sun","Resp":"Sun","ACC":1,"RT":1450,"Device":"touch"},{"Block":4,"Trial":85,"Pattern":"1101","Outcome":"Rain","Resp":"Rain","ACC":1,"RT":1384,"Device":"touch"},{"Block":4,"Trial":86,"Pattern":"1010","Outcome":"Rain","Resp":"Rain","ACC":1,"RT":983,"Device":"touch"},{"Block":4,"Trial":87,"Pattern":"0110","Outcome":"Rain","Resp":"Sun","ACC":0,"RT":333,"Device":"touch"},{"Block":4,"Trial":88,"Pattern":"1101","Outcome":"Rain","Resp":"Sun","ACC":0,"RT":566,"Device":"touch"},{"Block":4,"Trial":89,"Pattern":"0011","Outcome":"Sun","Resp":"Sun","ACC":1,"RT":1550,"Device":"touch"},{"Block":4,"Trial":90,"Pattern":"1010","Outcome":"Rain","Resp":"Rain","ACC":1,"RT":1284,"Device":"touch"},{"Block":4,"Trial":91,"Pattern":"1001","Outcome":"Sun","Resp":"Sun","ACC":1,"RT":334,"Device":"touch"},{"Block":4,"Trial":92,"Pattern":"0101","Outcome":"Sun","Resp":"Rain","ACC":0,"RT":10967,"Device":"touch"},{"Block":4,"Trial":93,"Pattern":"0011","Outcome":"Sun","Resp":"Rain","ACC":0,"RT":300,"Device":"touch"},{"Block":4,"Trial":94,"Pattern":"1110","Outcome":"Sun","Resp":"Sun","ACC":1,"RT":867,"Device":"touch"},{"Block":4,"Trial":95,"Pattern":"1010","Outcome":"Rain","Resp":"Rain","ACC":1,"RT":850,"Device":"touch"},{"Block":4,"Trial":96,"Pattern":"0101","Outcome":"Sun","Resp":"Sun","ACC":1,"RT":833,"Device":"touch"},{"Block":4,"Trial":97,"Pattern":"0110","Outcome":"Rain","Resp":"Rain","ACC":1,"RT":33,"Device":"touch"},{"Block":4,"Trial":98,"Pattern":"0011","Outcome":"Sun","Resp":"Sun","ACC":1,"RT":6334,"Device":"touch"},{"Block":4,"Trial":99,"Pattern":"0110","Outcome":"Sun","Resp":"Rain","ACC":0,"RT":850,"Device":"touch"},{"Block":4,"Trial":100,"Pattern":"1001","Outcome":"Sun","Resp":"Rain","ACC":0,"RT":1400,"Device":"touch"}]
